Folder: CMU/Physics/PHYS 331 (Advanced Laboratory)/PHYS 331 Experiments/PHYS 331 Raman Spectroscopy/PHYS 331 RS TiO2 Data

File: PHYS 331 RS TI02 Antistokes (2 Sec) Run 1.csv
724.376,2790
724.595,2754
724.815,2840
725.034,2851
725.253,2847
725.473,2829
725.692,2871
725.911,2920
726.13,2881
726.349,2901
726.568,2886
726.787,2930
727.006,2898
727.224,2912
727.443,2949
727.662,2951
727.88,2982
728.099,2942
728.317,2927
728.536,2986
728.754,2923
728.972,2910
729.19,2970
729.408,2976
729.627,2958
729.845,2986
730.062,2971
730.28,3037
730.498,3037
730.716,3019
730.934,3030
731.151,3062
731.369,3051
731.586,3035
731.804,3061
732.021,3109
732.238,3111
732.455,3132
732.673,3115
732.89,3153
733.107,3146
733.324,3139
733.541,3179
733.757,3200
733.974,3190
734.191,3245
734.408,3248
734.624,3242
734.841,3308
735.057,3371
735.273,3306
735.49,3320
735.706,3344
735.922,3385
736.138,3375
736.354,3401
736.57,3455
736.786,3358
737.002,3444
737.218,3533
737.433,3534
737.649,3568
737.865,3493
738.08,3603
738.296,3608
738.511,3618
738.726,3629
738.941,3626
739.157,3693
739.372,3712
739.587,3748
739.802,3788
740.017,3785
740.231,3836
740.446,3855
740.661,3920
740.876,3959
741.09,4018
741.305,4072
741.519,4126
741.733,4157
741.948,4199
742.162,4319
742.376,4248
742.59,4418
742.804,4428
743.018,4476
743.232,4468
743.446,4555
743.66,4688
743.873,4774
744.087,4820
744.3,4870
744.514,4926
744.727,4963
744.941,4980
745.154,5086
745.367,5273
745.58,5315
745.793,5567
746.006,5676
746.219,5777
746.432,5906
746.645,6045
746.857,6266
747.07,6438
747.282,6566
747.495,6899
747.707,7255
747.92,7696
748.132,8054
748.344,8552
748.556,9142
748.768,9522
748.98,9761
749.192,9706
749.404,9747
749.616,9493
749.828,9139
750.039,8876
750.251,8690
750.462,8459
750.674,8400
750.885,8217
751.096,8167
751.308,8088
751.519,7907
751.73,7919
751.941,7985
752.152,7790
752.363,7765
752.573,7896
752.784,7935
752.995,7990
753.205,7924
753.416,7991
753.626,8000
753.836,8161
754.047,8136
754.257,8260
754.467,8404
754.677,8436
754.887,8579
755.097,8656
755.307,8803
755.517,8933
755.726,9163
755.936,9387
756.145,9767
756.355,10098
756.564,10604
756.774,11306
756.983,12103
757.192,13027
757.401,13997
757.61,15142
757.819,16163
758.028,16888
758.237,17191
758.445,17098
758.654,16756
758.863,16326
759.071,15732
759.28,15160
759.488,14602
759.696,14232
759.904,13804
760.113,13773
760.321,13442
760.529,13249
760.737,13261
760.944,13284
761.152,13248
761.36,13292
761.567,13551
761.775,13406
761.982,13564
762.19,13847
762.397,13750
762.604,14021
762.812,14235
763.019,14363
763.226,14720
763.433,14720
763.639,14819
763.846,15230
764.053,15256
764.26,15508
764.466,15661
764.673,15683
764.879,15718
765.085,16062
765.292,16018
765.498,16254
765.704,16531
765.91,16770
766.116,16751
766.322,16762
766.527,16336
766.733,16189
766.939,16403
767.144,17449
767.35,19103
767.555,20997
767.761,23246
767.966,23938
768.171,25883
768.376,27962
768.581,29286
768.786,30186
768.991,30052
769.196,29609
769.4,28730
769.605,27728
769.81,26798
770.014,25898
770.218,25069
770.423,24500
770.627,23565
770.831,22643
771.035,22012
771.239,21622
771.443,21031
771.647,20876
771.851,20764
772.054,20781
772.258,21111
772.462,21598
772.665,22304
772.868,22495
773.072,23011
773.275,23356
773.478,23680
773.681,24170
773.884,24889
774.087,25129
774.29,25640
774.493,25999
774.695,26390
774.898,27149
775.1,27742
775.303,27912
775.505,28169
775.707,29202
775.91,29455
776.112,29728
776.314,30590
776.516,30153
776.718,30132
776.919,30387
777.121,30298
777.323,29906
777.524,30658
777.726,31308
777.927,31091
778.128,30730
778.279,30728

File: PHYS 331 RS TI02 Antistokes (4 Sec) Run 1.csv
724.376,4829
724.595,4989
724.815,5013
725.034,5020
725.253,5087
725.473,5094
725.692,5118
725.911,5132
726.13,5213
726.349,5220
726.568,5137
726.787,5202
727.006,5167
727.224,5220
727.443,5211
727.662,5192
727.88,5241
728.099,5228
728.317,5264
728.536,5251
728.754,5255
728.972,5245
729.19,5267
729.408,5308
729.627,5254
729.845,5431
730.062,5360
730.28,5426
730.498,5337
730.716,5350
730.934,5402
731.151,5471
731.369,5412
731.586,5535
731.804,5561
732.021,5635
732.238,5587
732.455,5548
732.673,5623
732.89,5590
733.107,5688
733.324,5648
733.541,5712
733.757,5790
733.974,5789
734.191,5833
734.408,5844
734.624,5936
734.841,5905
735.057,5924
735.273,6025
735.49,6059
735.706,6078
735.922,6057
736.138,6076
736.354,6108
736.57,6188
736.786,6238
737.002,6273
737.218,6406
737.433,6419
737.649,6452
737.865,6452
738.08,6598
738.296,6537
738.511,6605
738.726,6606
738.941,6677
739.157,6684
739.372,6775
739.587,6863
739.802,6900
740.017,7045
740.231,7071
740.446,7135
740.661,7203
740.876,7314
741.09,7437
741.305,7407
741.519,7524
741.733,7665
741.948,7719
742.162,7818
742.376,7867
742.59,8180
742.804,8213
743.018,8338
743.232,8441
743.446,8486
743.66,8658
743.873,8798
744.087,8998
744.3,9045
744.514,9227
744.727,9247
744.941,9267
745.154,9508
745.367,9774
745.58,10054
745.793,10378
746.006,10754
746.219,10901
746.432,11078
746.645,11295
746.857,11620
747.07,12186
747.282,12541
747.495,13139
747.707,13987
747.92,14564
748.132,15551
748.344,16454
748.556,17406
748.768,18307
748.98,18659
749.192,18877
749.404,18572
749.616,18163
749.828,17518
750.039,16904
750.251,16575
750.462,16306
750.674,16118
750.885,15659
751.096,15420
751.308,15245
751.519,15015
751.73,14861
751.941,14940
752.152,14859
752.363,14723
752.573,14856
752.784,15114
752.995,15088
753.205,15182
753.416,15289
753.626,15461
753.836,15706
754.047,15554
754.257,15904
754.467,16023
754.677,16292
754.887,16612
755.097,16714
755.307,16898
755.517,17450
755.726,17580
755.936,17960
756.145,18605
756.355,19595
756.564,20753
756.774,21857
756.983,23253
757.192,24994
757.401,26975
757.61,29523
757.819,31620
758.028,33356
758.237,33699
758.445,33571
758.654,32858
758.863,31957
759.071,30634
759.28,29550
759.488,28519
759.696,27737
759.904,27017
760.113,26866
760.321,26028
760.529,25868
760.737,25974
760.944,25628
761.152,25745
761.36,25911
761.567,26154
761.775,26269
761.982,26553
762.19,27025
762.397,26920
762.604,27228
762.812,27885
763.019,28111
763.226,28292
763.433,28815
763.639,28864
763.846,29469
764.053,29876
764.26,30083
764.466,30183
764.673,30477
764.879,30606
765.085,31469
765.292,31634
765.498,31929
765.704,32467
765.91,32869
766.116,33074
766.322,32533
766.527,31781
766.733,31503
766.939,32328
767.144,34183
767.35,37609
767.555,41263
767.761,45459
767.966,47571
768.171,50653
768.376,55036
768.581,57269
768.786,59638
768.991,59385
769.196,58984
769.4,56732
769.605,54344
769.81,52900
770.014,51162
770.218,49577
770.423,47948
770.627,46639
770.831,44892
771.035,43109
771.239,42194
771.443,41528
771.647,40620
771.851,40789
772.054,40952
772.258,42336
772.462,43044
772.665,44022
772.868,44707
773.072,45819
773.275,46345
773.478,46885
773.681,47792
773.884,48716
774.087,49664
774.29,50703
774.493,51159
774.695,52275
774.898,53455
775.1,55037
775.303,55511
775.505,56227
775.707,57407
775.91,59084
776.112,59147
776.314,60155
776.516,59760
776.718,59301
776.919,60540
777.121,59748
777.323,59593
777.524,61114
777.726,61358
777.927,62554
778.128,61810
778.279,61504

File: PHYS 331 RS TI02 Stokes (2 Sec) Run 1.csv
794.899,2744
795.109,3064
795.318,3589
795.528,4684
795.738,6162
795.948,7737
796.157,9250
796.367,10493
796.576,11464
796.786,12212
796.995,12770
797.205,13266
797.414,13788
797.623,14209
797.832,14553
798.041,15152
798.25,15340
798.459,15773
798.668,15979
798.877,16282
799.085,16552
799.294,16556
799.503,16672
799.711,16669
799.919,16507
800.128,16350
800.336,16030
800.544,15644
800.753,15266
800.961,14855
801.169,14643
801.377,14406
801.584,14212
801.792,13872
802,13748
802.208,13540
802.415,13283
802.623,12970
802.83,12890
803.038,12517
803.245,12239
803.452,12052
803.66,11902
803.867,11917
804.074,11822
804.281,11782
804.488,12009
804.695,12093
804.901,12177
805.108,12300
805.315,12301
805.521,12348
805.728,12334
805.934,12359
806.141,12399
806.347,12470
806.553,12445
806.759,12646
806.965,12705
807.171,12972
807.377,12986
807.583,12942
807.789,13113
807.995,13252
808.201,13064
808.406,13071
808.612,13315
808.817,13141
809.022,13275
809.228,13324
809.433,13462
809.638,13609
809.843,13876
810.048,14179
810.253,14572
810.458,14978
810.663,15672
810.868,16351
811.072,17267
811.277,18284
811.482,19463
811.686,20862
811.89,22437
812.095,24119
812.299,25982
812.503,27736
812.707,29755
812.911,31410
813.115,32779
813.319,33259
813.523,32924
813.727,31617
813.93,29547
814.134,26890
814.337,24056
814.541,21623
814.744,19346
814.947,17651
815.151,16016
815.354,14832
815.557,13963
815.76,13212
815.963,12627
816.166,12241
816.368,11835
816.571,11635
816.774,11393
816.976,11109
817.179,11203
817.381,11058
817.584,11046
817.786,11006
817.988,11042
818.19,11046
818.392,11118
818.594,10998
818.796,11144
818.998,11138
819.2,11113
819.401,11159
819.603,11192
819.804,11266
820.006,11468
820.207,11641
820.409,11805
820.61,12014
820.811,12293
821.012,12586
821.213,12991
821.414,13423
821.615,14014
821.816,14663
822.016,15269
822.217,16180
822.417,17027
822.618,18007
822.818,19104
823.019,20329
823.219,21711
823.419,23104
823.619,24512
823.819,25911
824.019,26709
824.219,27057
824.419,26877
824.618,25904
824.818,24375
825.018,22795
825.217,21045
825.417,19391
825.616,17885
825.815,16587
826.014,15509
826.213,14544
826.412,13713
826.611,13095
826.81,12523
827.009,12127
827.208,11695
827.406,11464
827.605,11034
827.803,10813
828.002,10650
828.2,10411
828.398,10286
828.596,10205
828.795,9996
828.993,9859
829.191,9722
829.388,9594
829.586,9461
829.784,9397
829.981,9244
830.179,9125
830.377,9070
830.574,8999
830.771,8874
830.968,8803
831.166,8681
831.363,8532
831.56,8466
831.757,8380
831.953,8307
832.15,8198
832.347,7974
832.543,7917
832.74,7875
832.936,7757
833.133,7653
833.329,7583
833.525,7511
833.721,7396
833.917,7443
834.113,7235
834.309,7229
834.505,7192
834.701,7180
834.897,7204
835.092,7146
835.288,7056
835.483,7045
835.678,6985
835.874,7069
836.069,6955
836.264,6904
836.459,6913
836.654,6886
836.849,6841
837.043,6836
837.238,6801
837.433,6808
837.627,6784
837.822,6750
838.016,6755
838.21,6716
838.404,6680
838.599,6713
838.793,6641
838.987,6656
839.18,6584
839.374,6620
839.568,6611
839.762,6624
839.955,6575
840.149,6575
840.342,6574
840.535,6488
840.729,6484
840.922,6472
841.115,6505
841.308,6459
841.501,6412
841.694,6374
841.886,6394
842.079,6344
842.271,6319
842.464,6289
842.656,6390
842.849,6340
843.041,6172
843.233,6295
843.425,6300
843.617,6304
843.809,6300
844.001,6241
844.193,6266
844.384,6259
844.576,6274
844.767,6243
844.959,6214
845.15,6263
845.341,6205
845.533,6239
845.724,6243
845.915,6198
846.106,6207
846.249,6175

File: PHYS 331 RS TI02 Stokes (3 Sec) Run 2.csv
794.899,3882
795.109,4249
795.318,5043
795.528,6559
795.738,8689
795.948,11203
796.157,13289
796.367,15242
796.576,16682
796.786,17808
796.995,18605
797.205,19336
797.414,20040
797.623,20800
797.832,21335
798.041,21850
798.25,22480
798.459,22977
798.668,23421
798.877,23894
799.085,24054
799.294,24287
799.503,24294
799.711,24229
799.919,24159
800.128,23874
800.336,23376
800.544,22882
800.753,22302
800.961,21765
801.169,21305
801.377,21038
801.584,20725
801.792,20281
802,20089
802.208,19654
802.415,19331
802.623,19015
802.83,18598
803.038,18114
803.245,17713
803.452,17502
803.66,17321
803.867,17205
804.074,17224
804.281,17310
804.488,17424
804.695,17559
804.901,17731
805.108,17721
805.315,17837
805.521,17867
805.728,17942
805.934,18000
806.141,18038
806.347,18099
806.553,18223
806.759,18390
806.965,18527
807.171,18826
807.377,18762
807.583,18906
807.789,18925
807.995,19055
808.201,19043
808.406,19090
808.612,19158
808.817,19214
809.022,19232
809.228,19346
809.433,19560
809.638,19775
809.843,20210
810.048,20613
810.253,21042
810.458,21871
810.663,22708
810.868,23961
811.072,25128
811.277,26648
811.482,28491
811.686,30512
811.89,32857
812.095,35542
812.299,38307
812.503,40958
812.707,43614
812.911,46201
813.115,48276
813.319,48946
813.523,48440
813.727,46664
813.93,43392
814.134,39445
814.337,35419
814.541,31555
814.744,28351
814.947,25675
815.151,23458
815.354,21716
815.557,20378
815.76,19432
815.963,18315
816.166,17654
816.368,17284
816.571,16873
816.774,16456
816.976,16257
817.179,16204
817.381,16037
817.584,16070
817.786,15933
817.988,15918
818.19,15994
818.392,15998
818.594,16018
818.796,15989
818.998,15997
819.2,16073
819.401,16186
819.603,16285
819.804,16492
820.006,16622
820.207,16871
820.409,17038
820.61,17424
820.811,17837
821.012,18328
821.213,19054
821.414,19608
821.615,20281
821.816,21300
822.016,22285
822.217,23621
822.417,24903
822.618,26345
822.818,27974
823.019,29769
823.219,31870
823.419,34044
823.619,36105
823.819,37904
824.019,39265
824.219,39923
824.419,39319
824.618,37917
824.818,36016
825.018,33484
825.217,30856
825.417,28322
825.616,26128
825.815,23980
826.014,22440
826.213,21139
826.412,19866
826.611,18887
826.81,18126
827.009,17532
827.208,17014
827.406,16626
827.605,16137
827.803,15693
828.002,15501
828.2,15151
828.398,14907
828.596,14602
828.795,14432
828.993,14241
829.191,14040
829.388,13846
829.586,13704
829.784,13577
829.981,13437
830.179,13286
830.377,13096
830.574,13030
830.771,12791
830.968,12709
831.166,12414
831.363,12256
831.56,12257
831.757,12037
831.953,11899
832.15,11699
832.347,11533
832.543,11428
832.74,11172
832.936,11155
833.133,11024
833.329,10884
833.525,10665
833.721,10746
833.917,10654
834.113,10502
834.309,10449
834.505,10382
834.701,10250
834.897,10316
835.092,10264
835.288,10132
835.483,10151
835.678,10079
835.874,10020
836.069,10063
836.264,9928
836.459,9913
836.654,9870
836.849,9879
837.043,9773
837.238,9747
837.433,9786
837.627,9704
837.822,9696
838.016,9654
838.21,9566
838.404,9487
838.599,9609
838.793,9635
838.987,9521
839.18,9553
839.374,9512
839.568,9505
839.762,9492
839.955,9546
840.149,9419
840.342,9386
840.535,9357
840.729,9342
840.922,9272
841.115,9280
841.308,9272
841.501,9232
841.694,9159
841.886,9165
842.079,9060
842.271,9036
842.464,9034
842.656,9029
842.849,9042
843.041,9019
843.233,8943
843.425,8977
843.617,8958
843.809,8933
844.001,8983
844.193,8991
844.384,8957
844.576,8949
844.767,8919
844.959,8901
845.15,8934
845.341,8853
845.533,8790
845.724,8918
845.915,8850
846.106,8797
846.249,8821