Folder: CMU/Physics/PHYS 331 - Advanced Laboratory/PHYS 331 Experiments/PHYS 331 Raman Spectroscopy/PHYS 331 RS TiO2 Data (part 2)

File: PHYS 331 RS TI02 Stokes (4 Sec) Run 2.csv
794.899,4915
795.109,5576
795.318,6507
795.528,8567
795.738,11520
795.948,14692
796.157,17601
796.367,20296
796.576,22206
796.786,23687
796.995,24836
797.205,25781
797.414,26770
797.623,27775
797.832,28579
798.041,29251
798.25,29877
798.459,30703
798.668,31249
798.877,31842
799.085,32075
799.294,32393
799.503,32481
799.711,32572
799.919,32304
800.128,31912
800.336,31309
800.544,30516
800.753,29833
800.961,29296
801.169,28490
801.377,27962
801.584,27580
801.792,27066
802,26763
802.208,26423
802.415,25816
802.623,25319
802.83,24703
803.038,24241
803.245,23627
803.452,23360
803.66,23068
803.867,22912
804.074,22873
804.281,22829
804.488,23158
804.695,23344
804.901,23531
805.108,23686
805.315,23700
805.521,23838
805.728,23906
805.934,24033
806.141,23860
806.347,24211
806.553,24199
806.759,24505
806.965,24750
807.171,25077
807.377,25117
807.583,25139
807.789,25315
807.995,25375
808.201,25339
808.406,25320
808.612,25609
808.817,25580
809.022,25585
809.228,25825
809.433,25985
809.638,26381
809.843,26823
810.048,27538
810.253,28228
810.458,29233
810.663,30295
810.868,31949
811.072,33677
811.277,35687
811.482,38195
811.686,40869
811.89,44090
812.095,47532
812.299,50993
812.503,54786
812.707,58429
812.911,62177
813.115,64705
813.319,65535
813.523,65388
813.727,62522
813.93,58431
814.134,53041
814.337,47704
814.541,42397
814.744,38087
814.947,34520
815.151,31301
815.354,29183
815.557,27185
815.76,25795
815.963,24522
816.166,23566
816.368,23057
816.571,22325
816.774,21992
816.976,21720
817.179,21500
817.381,21464
817.584,21325
817.786,21166
817.988,21261
818.19,21371
818.392,21134
818.594,21231
818.796,21223
818.998,21274
819.2,21435
819.401,21457
819.603,21697
819.804,21874
820.006,22179
820.207,22293
820.409,22682
820.61,23263
820.811,23774
821.012,24443
821.213,25184
821.414,25984
821.615,27203
821.816,28405
822.016,29708
822.217,31378
822.417,33266
822.618,35147
822.818,37353
823.019,39817
823.219,42554
823.419,45509
823.619,48370
823.819,50748
824.019,52635
824.219,53427
824.419,52658
824.618,51079
824.818,48199
825.018,44972
825.217,41332
825.417,38014
825.616,34987
825.815,32118
826.014,29974
826.213,28215
826.412,26630
826.611,25484
826.81,24246
827.009,23324
827.208,22605
827.406,22106
827.605,21489
827.803,20910
828.002,20463
828.2,20063
828.398,19677
828.596,19509
828.795,19184
828.993,18872
829.191,18730
829.388,18357
829.586,18191
829.784,18023
829.981,17847
830.179,17581
830.377,17337
830.574,17226
830.771,16952
830.968,16802
831.166,16607
831.363,16420
831.56,16212
831.757,15939
831.953,15717
832.15,15383
832.347,15290
832.543,15116
832.74,14813
832.936,14733
833.133,14509
833.329,14324
833.525,14242
833.721,14064
833.917,14009
834.113,13790
834.309,13780
834.505,13626
834.701,13479
834.897,13534
835.092,13505
835.288,13332
835.483,13273
835.678,13378
835.874,13305
836.069,13208
836.264,13055
836.459,13124
836.654,12970
836.849,12991
837.043,12958
837.238,12893
837.433,12882
837.627,12778
837.822,12687
838.016,12600
838.21,12578
838.404,12696
838.599,12599
838.793,12605
838.987,12631
839.18,12527
839.374,12506
839.568,12466
839.762,12482
839.955,12563
840.149,12372
840.342,12350
840.535,12295
840.729,12271
840.922,12240
841.115,12144
841.308,12164
841.501,12060
841.694,12085
841.886,12068
842.079,11927
842.271,11946
842.464,11907
842.656,11985
842.849,12016
843.041,11858
843.233,11794
843.425,11834
843.617,11820
843.809,11821
844.001,11770
844.193,11825
844.384,11763
844.576,11730
844.767,11705
844.959,11722
845.15,11695
845.341,11696
845.533,11693
845.724,11624
845.915,11688
846.106,11580
846.249,11611