Folder: CMU/Physics/PHYS 331 - Advanced Laboratory/PHYS 331 Experiments/PHYS 331 Raman Spectroscopy/PHYS 331 RS TiO2 Data

File: PHYS 331 RS TI02 Antistokes (2 Sec) Run 2.csv
724.376,2772
724.595,2836
724.815,2863
725.034,2836
725.253,2850
725.473,2852
725.692,2844
725.911,2928
726.13,2941
726.349,2925
726.568,2912
726.787,2980
727.006,2936
727.224,2954
727.443,2954
727.662,2913
727.88,2979
728.099,2989
728.317,2983
728.536,2928
728.754,2932
728.972,2964
729.19,3019
729.408,2984
729.627,3005
729.845,3064
730.062,2997
730.28,3045
730.498,3012
730.716,3081
730.934,3053
731.151,3110
731.369,3068
731.586,3050
731.804,3111
732.021,3088
732.238,3104
732.455,3118
732.673,3187
732.89,3146
733.107,3126
733.324,3153
733.541,3196
733.757,3202
733.974,3239
734.191,3273
734.408,3255
734.624,3293
734.841,3308
735.057,3306
735.273,3343
735.49,3315
735.706,3377
735.922,3393
736.138,3347
736.354,3399
736.57,3449
736.786,3490
737.002,3470
737.218,3519
737.433,3486
737.649,3559
737.865,3608
738.08,3616
738.296,3621
738.511,3662
738.726,3647
738.941,3712
739.157,3750
739.372,3718
739.587,3733
739.802,3767
740.017,3833
740.231,3844
740.446,3928
740.661,3916
740.876,3949
741.09,3981
741.305,4066
741.519,4126
741.733,4209
741.948,4268
742.162,4267
742.376,4315
742.59,4412
742.804,4418
743.018,4437
743.232,4489
743.446,4555
743.66,4699
743.873,4715
744.087,4803
744.3,4912
744.514,4958
744.727,5035
744.941,5015
745.154,5146
745.367,5282
745.58,5374
745.793,5596
746.006,5637
746.219,5760
746.432,5903
746.645,6011
746.857,6233
747.07,6394
747.282,6599
747.495,7048
747.707,7287
747.92,7657
748.132,8199
748.344,8673
748.556,9179
748.768,9522
748.98,9830
749.192,9795
749.404,9758
749.616,9448
749.828,9143
750.039,8915
750.251,8730
750.462,8519
750.674,8479
750.885,8242
751.096,8146
751.308,8146
751.519,7970
751.73,7887
751.941,7897
752.152,7781
752.363,7844
752.573,7967
752.784,7939
752.995,7957
753.205,7991
753.416,8033
753.626,8043
753.836,8191
754.047,8163
754.257,8344
754.467,8423
754.677,8614
754.887,8670
755.097,8672
755.307,8798
755.517,8933
755.726,9155
755.936,9401
756.145,9701
756.355,10178
756.564,10684
756.774,11322
756.983,12060
757.192,12900
757.401,14008
757.61,15196
757.819,16282
758.028,16909
758.237,17254
758.445,17131
758.654,16798
758.863,16313
759.071,15803
759.28,15183
759.488,14564
759.696,14264
759.904,13907
760.113,13908
760.321,13496
760.529,13227
760.737,13352
760.944,13255
761.152,13238
761.36,13372
761.567,13582
761.775,13471
761.982,13686
762.19,13820
762.397,13865
762.604,14134
762.812,14361
763.019,14486
763.226,14525
763.433,14695
763.639,15038
763.846,15160
764.053,15130
764.26,15462
764.466,15573
764.673,15726
764.879,15690
765.085,16038
765.292,16166
765.498,16318
765.704,16640
765.91,16783
766.116,16881
766.322,16703
766.527,16374
766.733,16157
766.939,16527
767.144,17451
767.35,19235
767.555,21100
767.761,23060
767.966,24013
768.171,25943
768.376,27945
768.581,29228
768.786,30176
768.991,30218
769.196,29678
769.4,28633
769.605,27817
769.81,26922
770.014,26167
770.218,25235
770.423,24678
770.627,23624
770.831,22634
771.035,22121
771.239,21488
771.443,21059
771.647,20841
771.851,20725
772.054,20927
772.258,21238
772.462,21600
772.665,22370
772.868,22726
773.072,23061
773.275,23629
773.478,23850
773.681,24285
773.884,24977
774.087,25060
774.29,25618
774.493,26024
774.695,26389
774.898,27407
775.1,27761
775.303,28183
775.505,28044
775.707,29024
775.91,29881
776.112,29844
776.314,30392
776.516,30128
776.718,30168
776.919,30248
777.121,30435
777.323,30163
777.524,30589
777.726,31273
777.927,31103
778.128,30739
778.279,30989

File: PHYS 331 RS TI02 Antistokes (3 Sec) Run 1.csv
724.376,3827
724.595,3912
724.815,3884
725.034,3966
725.253,3891
725.473,3914
725.692,3948
725.911,4010
726.13,4013
726.349,4032
726.568,4054
726.787,4024
727.006,4037
727.224,4063
727.443,4052
727.662,4053
727.88,4111
728.099,4100
728.317,4086
728.536,4114
728.754,4050
728.972,4128
729.19,4096
729.408,4188
729.627,4140
729.845,4222
730.062,4151
730.28,4210
730.498,4203
730.716,4224
730.934,4251
731.151,4234
731.369,4276
731.586,4259
731.804,4332
732.021,4341
732.238,4350
732.455,4338
732.673,4339
732.89,4353
733.107,4373
733.324,4404
733.541,4405
733.757,4401
733.974,4472
734.191,4441
734.408,4555
734.624,4545
734.841,4618
735.057,4608
735.273,4684
735.49,4691
735.706,4682
735.922,4753
736.138,4734
736.354,4782
736.57,4778
736.786,4860
737.002,4837
737.218,4935
737.433,4962
737.649,5035
737.865,5002
738.08,4972
738.296,5058
738.511,5093
738.726,5149
738.941,5128
739.157,5148
739.372,5289
739.587,5238
739.802,5287
740.017,5403
740.231,5426
740.446,5464
740.661,5472
740.876,5533
741.09,5656
741.305,5622
741.519,5815
741.733,5891
741.948,6004
742.162,5946
742.376,6102
742.59,6267
742.804,6354
743.018,6326
743.232,6372
743.446,6446
743.66,6579
743.873,6713
744.087,6774
744.3,6843
744.514,7042
744.727,7073
744.941,7121
745.154,7225
745.367,7499
745.58,7698
745.793,8050
746.006,8092
746.219,8386
746.432,8444
746.645,8699
746.857,8959
747.07,9228
747.282,9524
747.495,10021
747.707,10475
747.92,11106
748.132,11850
748.344,12583
748.556,13218
748.768,13839
748.98,14148
749.192,14184
749.404,14080
749.616,13662
749.828,13250
750.039,12903
750.251,12566
750.462,12325
750.674,12118
750.885,11857
751.096,11721
751.308,11519
751.519,11301
751.73,11249
751.941,11273
752.152,11209
752.363,11180
752.573,11224
752.784,11358
752.995,11445
753.205,11469
753.416,11617
753.626,11558
753.836,11781
754.047,11874
754.257,12026
754.467,12222
754.677,12293
754.887,12435
755.097,12647
755.307,12624
755.517,13137
755.726,13225
755.936,13684
756.145,14155
756.355,14710
756.564,15435
756.774,16556
756.983,17535
757.192,18829
757.401,20450
757.61,22297
757.819,23714
758.028,24921
758.237,25502
758.445,25196
758.654,24513
758.863,24024
759.071,23030
759.28,22359
759.488,21341
759.696,20911
759.904,20295
760.113,20191
760.321,19657
760.529,19477
760.737,19485
760.944,19292
761.152,19363
761.36,19406
761.567,19784
761.775,19765
761.982,19894
762.19,20230
762.397,20202
762.604,20394
762.812,20861
763.019,21204
763.226,21117
763.433,21459
763.639,21862
763.846,22204
764.053,22407
764.26,22778
764.466,22750
764.673,22889
764.879,22977
765.085,23590
765.292,23802
765.498,23946
765.704,24399
765.91,24707
766.116,24775
766.322,24314
766.527,24056
766.733,23649
766.939,24154
767.144,25858
767.35,28189
767.555,30980
767.761,34069
767.966,35329
768.171,38014
768.376,41338
768.581,42781
768.786,44579
768.991,44533
769.196,43942
769.4,42393
769.605,40766
769.81,39323
770.014,38246
770.218,37156
770.423,36132
770.627,34699
770.831,33494
771.035,32403
771.239,32014
771.443,31162
771.647,30655
771.851,30527
772.054,30990
772.258,31267
772.462,32193
772.665,33067
772.868,33636
773.072,34344
773.275,34805
773.478,35122
773.681,35829
773.884,36652
774.087,37531
774.29,37999
774.493,38702
774.695,39428
774.898,40050
775.1,41281
775.303,41851
775.505,41963
775.707,43332
775.91,44354
776.112,44076
776.314,45323
776.516,44483
776.718,44038
776.919,45423
777.121,44970
777.323,44543
777.524,45692
777.726,46211
777.927,46438
778.128,46031
778.279,45746

File: PHYS 331 RS TI02 Antistokes (3 Sec) Run 2.csv
724.376,3807
724.595,3887
724.815,3867
725.034,3931
725.253,3949
725.473,3903
725.692,4008
725.911,3989
726.13,4023
726.349,4028
726.568,4077
726.787,4059
727.006,4067
727.224,4086
727.443,4035
727.662,4014
727.88,4137
728.099,4054
728.317,4073
728.536,4102
728.754,4098
728.972,4066
729.19,4127
729.408,4164
729.627,4152
729.845,4213
730.062,4129
730.28,4177
730.498,4166
730.716,4212
730.934,4234
731.151,4250
731.369,4227
731.586,4296
731.804,4261
732.021,4291
732.238,4317
732.455,4330
732.673,4392
732.89,4316
733.107,4356
733.324,4369
733.541,4385
733.757,4411
733.974,4468
734.191,4516
734.408,4567
734.624,4526
734.841,4569
735.057,4583
735.273,4624
735.49,4651
735.706,4719
735.922,4724
736.138,4767
736.354,4754
736.57,4751
736.786,4807
737.002,4819
737.218,4886
737.433,4946
737.649,4978
737.865,5072
738.08,5061
738.296,5100
738.511,5111
738.726,5087
738.941,5101
739.157,5227
739.372,5281
739.587,5253
739.802,5329
740.017,5401
740.231,5399
740.446,5492
740.661,5531
740.876,5565
741.09,5717
741.305,5661
741.519,5803
741.733,5924
741.948,5976
742.162,5972
742.376,6086
742.59,6230
742.804,6328
743.018,6288
743.232,6429
743.446,6482
743.66,6631
743.873,6751
744.087,6883
744.3,6917
744.514,6923
744.727,7123
744.941,7159
745.154,7268
745.367,7454
745.58,7730
745.793,7979
746.006,8101
746.219,8237
746.432,8380
746.645,8664
746.857,8822
747.07,9237
747.282,9539
747.495,10010
747.707,10496
747.92,11119
748.132,11828
748.344,12529
748.556,13276
748.768,13877
748.98,14091
749.192,14152
749.404,14138
749.616,13710
749.828,13170
750.039,12833
750.251,12636
750.462,12367
750.674,12173
750.885,11779
751.096,11797
751.308,11529
751.519,11394
751.73,11258
751.941,11272
752.152,11231
752.363,11188
752.573,11276
752.784,11388
752.995,11483
753.205,11530
753.416,11591
753.626,11657
753.836,11861
754.047,11835
754.257,12049
754.467,12222
754.677,12348
754.887,12508
755.097,12661
755.307,12677
755.517,13096
755.726,13264
755.936,13610
756.145,14170
756.355,14739
756.564,15593
756.774,16592
756.983,17569
757.192,18787
757.401,20449
757.61,22219
757.819,23679
758.028,24941
758.237,25481
758.445,25179
758.654,24519
758.863,24039
759.071,22998
759.28,22390
759.488,21455
759.696,20981
759.904,20173
760.113,20191
760.321,19620
760.529,19500
760.737,19435
760.944,19292
761.152,19482
761.36,19398
761.567,19810
761.775,19761
761.982,20016
762.19,20215
762.397,20228
762.604,20447
762.812,20909
763.019,21090
763.226,21175
763.433,21374
763.639,21746
763.846,22136
764.053,22494
764.26,22731
764.466,22757
764.673,22988
764.879,22892
765.085,23591
765.292,23693
765.498,23846
765.704,24266
765.91,24666
766.116,24653
766.322,24365
766.527,23929
766.733,23677
766.939,24382
767.144,25852
767.35,28245
767.555,31028
767.761,34201
767.966,35344
768.171,37986
768.376,41326
768.581,43075
768.786,44645
768.991,44836
769.196,44020
769.4,42639
769.605,40832
769.81,39361
770.014,38439
770.218,37189
770.423,36357
770.627,34799
770.831,33664
771.035,32510
771.239,31978
771.443,31168
771.647,30450
771.851,30662
772.054,30944
772.258,31563
772.462,32309
772.665,33026
772.868,33668
773.072,34426
773.275,34930
773.478,35286
773.681,35937
773.884,36528
774.087,37448
774.29,38125
774.493,38653
774.695,39501
774.898,40011
775.1,41483
775.303,41637
775.505,42161
775.707,43158
775.91,44381
776.112,44290
776.314,45741
776.516,44907
776.718,44155
776.919,45557
777.121,45037
777.323,44589
777.524,45835
777.726,46261
777.927,46450
778.128,46144
778.279,45648

File: PHYS 331 RS TI02 Antistokes (4 Sec) Run 2.csv
724.376,4875
724.595,4981
724.815,5016
725.034,5077
725.253,5097
725.473,5161
725.692,5111
725.911,5119
726.13,5203
726.349,5147
726.568,5211
726.787,5210
727.006,5206
727.224,5243
727.443,5196
727.662,5182
727.88,5262
728.099,5237
728.317,5350
728.536,5250
728.754,5252
728.972,5311
729.19,5294
729.408,5340
729.627,5345
729.845,5393
730.062,5410
730.28,5422
730.498,5368
730.716,5402
730.934,5443
731.151,5499
731.369,5465
731.586,5532
731.804,5541
732.021,5568
732.238,5547
732.455,5618
732.673,5519
732.89,5632
733.107,5717
733.324,5727
733.541,5682
733.757,5787
733.974,5779
734.191,5869
734.408,5936
734.624,5971
734.841,5872
735.057,5929
735.273,6046
735.49,6088
735.706,6052
735.922,6071
736.138,6078
736.354,6141
736.57,6192
736.786,6233
737.002,6283
737.218,6380
737.433,6447
737.649,6490
737.865,6482
738.08,6546
738.296,6545
738.511,6637
738.726,6619
738.941,6683
739.157,6749
739.372,6701
739.587,6871
739.802,7006
740.017,7022
740.231,7070
740.446,7117
740.661,7159
740.876,7347
741.09,7468
741.305,7372
741.519,7522
741.733,7682
741.948,7723
742.162,7812
742.376,7906
742.59,8145
742.804,8266
743.018,8330
743.232,8409
743.446,8516
743.66,8786
743.873,8806
744.087,8913
744.3,9044
744.514,9127
744.727,9193
744.941,9325
745.154,9590
745.367,9807
745.58,10065
745.793,10530
746.006,10727
746.219,10942
746.432,11138
746.645,11329
746.857,11666
747.07,12079
747.282,12597
747.495,13215
747.707,13958
747.92,14675
748.132,15571
748.344,16467
748.556,17362
748.768,18297
748.98,18798
749.192,18880
749.404,18456
749.616,18199
749.828,17386
750.039,17004
750.251,16735
750.462,16369
750.674,16059
750.885,15723
751.096,15453
751.308,15334
751.519,15098
751.73,14894
751.941,15007
752.152,14933
752.363,14824
752.573,14860
752.784,15004
752.995,15075
753.205,15220
753.416,15237
753.626,15388
753.836,15646
754.047,15589
754.257,15959
754.467,16267
754.677,16212
754.887,16648
755.097,16741
755.307,16855
755.517,17443
755.726,17533
755.936,18074
756.145,18570
756.355,19617
756.564,20647
756.774,21939
756.983,23225
757.192,24985
757.401,27207
757.61,29372
757.819,31766
758.028,33267
758.237,33673
758.445,33452
758.654,32921
758.863,32052
759.071,30529
759.28,29717
759.488,28427
759.696,27901
759.904,26957
760.113,26827
760.321,26060
760.529,26155
760.737,25826
760.944,25665
761.152,25898
761.36,26020
761.567,26201
761.775,26375
761.982,26629
762.19,26961
762.397,26893
762.604,27338
762.812,27991
763.019,28203
763.226,28479
763.433,28845
763.639,29075
763.846,29542
764.053,29859
764.26,30087
764.466,30222
764.673,30582
764.879,30575
765.085,31418
765.292,31642
765.498,32018
765.704,32690
765.91,32921
766.116,32955
766.322,32556
766.527,31898
766.733,31650
766.939,32332
767.144,34119
767.35,37739
767.555,41443
767.761,45487
767.966,47620
768.171,50699
768.376,55045
768.581,57064
768.786,59794
768.991,59458
769.196,58819
769.4,56675
769.605,54735
769.81,52797
770.014,50913
770.218,49432
770.423,48094
770.627,46646
770.831,44825
771.035,43331
771.239,42445
771.443,41514
771.647,40790
771.851,40908
772.054,41130
772.258,42444
772.462,43077
772.665,44121
772.868,44869
773.072,46175
773.275,46596
773.478,47213
773.681,47664
773.884,48872
774.087,49878
774.29,50852
774.493,51058
774.695,52659
774.898,53355
775.1,55172
775.303,55751
775.505,56335
775.707,57276
775.91,59419
776.112,59149
776.314,60152
776.516,60107
776.718,59509
776.919,60831
777.121,60008
777.323,59925
777.524,61194
777.726,61411
777.927,62693
778.128,61974
778.279,61484

File: PHYS 331 RS TI02 Stokes (2 Sec) Run 2.csv
794.899,2748
795.109,3045
795.318,3582
795.528,4609
795.738,6057
795.948,7710
796.157,9230
796.367,10533
796.576,11546
796.786,12173
796.995,12756
797.205,13264
797.414,13783
797.623,14283
797.832,14628
798.041,14985
798.25,15496
798.459,15738
798.668,16122
798.877,16330
799.085,16456
799.294,16582
799.503,16671
799.711,16627
799.919,16482
800.128,16306
800.336,16064
800.544,15727
800.753,15246
800.961,15030
801.169,14670
801.377,14394
801.584,14318
801.792,13898
802,13752
802.208,13515
802.415,13339
802.623,13127
802.83,12797
803.038,12544
803.245,12290
803.452,12073
803.66,11805
803.867,11837
804.074,11867
804.281,11843
804.488,11905
804.695,12090
804.901,12216
805.108,12255
805.315,12289
805.521,12251
805.728,12300
805.934,12389
806.141,12457
806.347,12422
806.553,12469
806.759,12621
806.965,12696
807.171,12866
807.377,13009
807.583,12934
807.789,13045
807.995,13105
808.201,13032
808.406,13101
808.612,13150
808.817,13185
809.022,13220
809.228,13332
809.433,13502
809.638,13569
809.843,13813
810.048,14102
810.253,14460
810.458,15027
810.663,15604
810.868,16271
811.072,17160
811.277,18259
811.482,19411
811.686,20924
811.89,22378
812.095,24139
812.299,25932
812.503,27738
812.707,29628
812.911,31530
813.115,32660
813.319,33354
813.523,32986
813.727,31528
813.93,29398
814.134,26910
814.337,24217
814.541,21517
814.744,19358
814.947,17536
815.151,16043
815.354,14932
815.557,13976
815.76,13279
815.963,12674
816.166,12177
816.368,11854
816.571,11551
816.774,11377
816.976,11205
817.179,11094
817.381,11112
817.584,11021
817.786,10976
817.988,11023
818.19,11055
818.392,11071
818.594,11004
818.796,11030
818.998,11074
819.2,11060
819.401,11228
819.603,11210
819.804,11321
820.006,11490
820.207,11625
820.409,11790
820.61,12091
820.811,12235
821.012,12604
821.213,13023
821.414,13416
821.615,13954
821.816,14655
822.016,15216
822.217,16141
822.417,16978
822.618,18000
822.818,19070
823.019,20458
823.219,21683
823.419,23121
823.619,24502
823.819,25831
824.019,26711
824.219,26854
824.419,26781
824.618,25769
824.818,24453
825.018,22735
825.217,21004
825.417,19360
825.616,17884
825.815,16514
826.014,15420
826.213,14411
826.412,13693
826.611,13025
826.81,12555
827.009,12030
827.208,11672
827.406,11304
827.605,11119
827.803,10899
828.002,10634
828.2,10479
828.398,10234
828.596,10138
828.795,9981
828.993,9883
829.191,9672
829.388,9586
829.586,9460
829.784,9429
829.981,9316
830.179,9257
830.377,9046
830.574,8970
830.771,8900
830.968,8796
831.166,8667
831.363,8540
831.56,8477
831.757,8427
831.953,8289
832.15,8162
832.347,8074
832.543,7974
832.74,7865
832.936,7761
833.133,7677
833.329,7642
833.525,7490
833.721,7429
833.917,7421
834.113,7306
834.309,7238
834.505,7280
834.701,7145
834.897,7105
835.092,7152
835.288,7083
835.483,7056
835.678,7042
835.874,7012
836.069,7043
836.264,6905
836.459,6905
836.654,6918
836.849,6856
837.043,6912
837.238,6765
837.433,6732
837.627,6846
837.822,6748
838.016,6711
838.21,6744
838.404,6672
838.599,6765
838.793,6731
838.987,6603
839.18,6662
839.374,6627
839.568,6583
839.762,6596
839.955,6613
840.149,6554
840.342,6559
840.535,6573
840.729,6550
840.922,6513
841.115,6437
841.308,6440
841.501,6438
841.694,6446
841.886,6396
842.079,6362
842.271,6377
842.464,6309
842.656,6313
842.849,6297
843.041,6293
843.233,6256
843.425,6298
843.617,6300
843.809,6316
844.001,6250
844.193,6221
844.384,6233
844.576,6295
844.767,6213
844.959,6206
845.15,6261
845.341,6255
845.533,6228
845.724,6212
845.915,6204
846.106,6125
846.249,6174

File: PHYS 331 RS TI02 Stokes (3 Sec) Run 1.csv
794.899,3793
795.109,4246
795.318,5014
795.528,6533
795.738,8706
795.948,11148
796.157,13414
796.367,15295
796.576,16692
796.786,17863
796.995,18558
797.205,19265
797.414,20015
797.623,20739
797.832,21496
798.041,21707
798.25,22476
798.459,22933
798.668,23478
798.877,23829
799.085,24187
799.294,24268
799.503,24402
799.711,24344
799.919,24202
800.128,23886
800.336,23368
800.544,22747
800.753,22309
800.961,21878
801.169,21311
801.377,20976
801.584,20612
801.792,20453
802,20074
802.208,19752
802.415,19256
802.623,19075
802.83,18620
803.038,18157
803.245,17748
803.452,17453
803.66,17214
803.867,17200
804.074,17125
804.281,17318
804.488,17362
804.695,17518
804.901,17721
805.108,17849
805.315,17878
805.521,17973
805.728,17854
805.934,17977
806.141,18090
806.347,18112
806.553,18226
806.759,18405
806.965,18632
807.171,18802
807.377,18806
807.583,18931
807.789,19026
807.995,19101
808.201,18961
808.406,19050
808.612,19201
808.817,19097
809.022,19158
809.228,19429
809.433,19533
809.638,19934
809.843,20232
810.048,20612
810.253,21158
810.458,21792
810.663,22684
810.868,23919
811.072,25266
811.277,26750
811.482,28441
811.686,30523
811.89,32983
812.095,35608
812.299,38172
812.503,40893
812.707,43825
812.911,46271
813.115,48148
813.319,49068
813.523,48661
813.727,46575
813.93,43473
814.134,39474
814.337,35604
814.541,31760
814.744,28281
814.947,25670
815.151,23464
815.354,21713
815.557,20458
815.76,19264
815.963,18371
816.166,17576
816.368,17230
816.571,16773
816.774,16446
816.976,16309
817.179,16174
817.381,16137
817.584,16020
817.786,15916
817.988,16065
818.19,15951
818.392,16009
818.594,15979
818.796,16063
818.998,16056
819.2,16064
819.401,16144
819.603,16271
819.804,16492
820.006,16524
820.207,16839
820.409,17100
820.61,17463
820.811,17741
821.012,18354
821.213,18824
821.414,19601
821.615,20301
821.816,21206
822.016,22389
822.217,23511
822.417,24833
822.618,26118
822.818,27970
823.019,29844
823.219,31939
823.419,33976
823.619,36119
823.819,38000
824.019,39426
824.219,39765
824.419,39449
824.618,37955
824.818,35885
825.018,33406
825.217,30919
825.417,28268
825.616,26240
825.815,24134
826.014,22479
826.213,21029
826.412,19931
826.611,19018
826.81,18235
827.009,17615
827.208,17051
827.406,16586
827.605,16131
827.803,15731
828.002,15405
828.2,15205
828.398,14866
828.596,14646
828.795,14460
828.993,14216
829.191,14059
829.388,13848
829.586,13740
829.784,13621
829.981,13392
830.179,13268
830.377,13065
830.574,12955
830.771,12761
830.968,12623
831.166,12514
831.363,12347
831.56,12255
831.757,12026
831.953,11895
832.15,11794
832.347,11497
832.543,11485
832.74,11287
832.936,11245
833.133,11055
833.329,10842
833.525,10776
833.721,10647
833.917,10630
834.113,10493
834.309,10374
834.505,10381
834.701,10247
834.897,10206
835.092,10269
835.288,10108
835.483,10117
835.678,10175
835.874,9999
836.069,10009
836.264,9938
836.459,9931
836.654,9873
836.849,9787
837.043,9817
837.238,9751
837.433,9782
837.627,9780
837.822,9701
838.016,9630
838.21,9606
838.404,9571
838.599,9508
838.793,9578
838.987,9515
839.18,9493
839.374,9508
839.568,9465
839.762,9461
839.955,9485
840.149,9336
840.342,9323
840.535,9279
840.729,9257
840.922,9302
841.115,9272
841.308,9246
841.501,9221
841.694,9152
841.886,9172
842.079,9056
842.271,9102
842.464,9055
842.656,9025
842.849,9014
843.041,8985
843.233,9038
843.425,9023
843.617,9031
843.809,9005
844.001,8939
844.193,8969
844.384,8963
844.576,8936
844.767,8885
844.959,8926
845.15,8969
845.341,8929
845.533,8918
845.724,8830
845.915,8913
846.106,8770
846.249,8883

File: PHYS 331 RS TI02 Stokes (4 Sec) Run 1.csv
794.899,4955
795.109,5504
795.318,6547
795.528,8553
795.738,11500
795.948,14703
796.157,17656
796.367,20329
796.576,22292
796.786,23695
796.995,24621
797.205,25779
797.414,26873
797.623,27750
797.832,28645
798.041,29330
798.25,29991
798.459,30652
798.668,31366
798.877,31866
799.085,32221
799.294,32457
799.503,32550
799.711,32574
799.919,32440
800.128,31921
800.336,31276
800.544,30476
800.753,29796
800.961,29110
801.169,28485
801.377,28044
801.584,27680
801.792,27130
802,26771
802.208,26260
802.415,25846
802.623,25489
802.83,24770
803.038,24201
803.245,23761
803.452,23163
803.66,22959
803.867,22881
804.074,22864
804.281,22973
804.488,23240
804.695,23433
804.901,23578
805.108,23673
805.315,23751
805.521,23722
805.728,23895
805.934,23987
806.141,23972
806.347,24112
806.553,24347
806.759,24471
806.965,24749
807.171,25018
807.377,25039
807.583,25209
807.789,25285
807.995,25329
808.201,25298
808.406,25419
808.612,25559
808.817,25451
809.022,25583
809.228,25776
809.433,26054
809.638,26390
809.843,26906
810.048,27399
810.253,28314
810.458,29110
810.663,30397
810.868,31827
811.072,33644
811.277,35646
811.482,38245
811.686,40888
811.89,44073
812.095,47465
812.299,51138
812.503,54816
812.707,58529
812.911,62196
813.115,64329
813.319,65535
813.523,65128
813.727,62477
813.93,58207
814.134,52916
814.337,47566
814.541,42434
814.744,37978
814.947,34352
815.151,31268
815.354,29184
815.557,27295
815.76,25744
815.963,24449
816.166,23522
816.368,23020
816.571,22357
816.774,21986
816.976,21574
817.179,21515
817.381,21260
817.584,21335
817.786,21339
817.988,21228
818.19,21207
818.392,21265
818.594,21236
818.796,21332
818.998,21257
819.2,21336
819.401,21514
819.603,21482
819.804,21861
820.006,21991
820.207,22458
820.409,22764
820.61,23107
820.811,23675
821.012,24532
821.213,25067
821.414,26025
821.615,27164
821.816,28420
822.016,29730
822.217,31442
822.417,33187
822.618,35007
822.818,37341
823.019,39862
823.219,42554
823.419,45372
823.619,48306
823.819,50954
824.019,52786
824.219,53257
824.419,52746
824.618,50863
824.818,48191
825.018,44845
825.217,41397
825.417,37974
825.616,35016
825.815,32268
826.014,29965
826.213,28124
826.412,26696
826.611,25252
826.81,24326
827.009,23328
827.208,22562
827.406,21930
827.605,21435
827.803,20948
828.002,20520
828.2,20239
828.398,19737
828.596,19488
828.795,19120
828.993,18791
829.191,18625
829.388,18426
829.586,18192
829.784,17930
829.981,17834
830.179,17547
830.377,17441
830.574,17153
830.771,16977
830.968,16680
831.166,16614
831.363,16372
831.56,16174
831.757,15948
831.953,15761
832.15,15525
832.347,15346
832.543,15046
832.74,14837
832.936,14731
833.133,14553
833.329,14336
833.525,14209
833.721,14090
833.917,13947
834.113,13849
834.309,13653
834.505,13671
834.701,13585
834.897,13590
835.092,13428
835.288,13419
835.483,13308
835.678,13301
835.874,13309
836.069,13152
836.264,13096
836.459,13045
836.654,13052
836.849,13053
837.043,12900
837.238,12819
837.433,12845
837.627,12749
837.822,12676
838.016,12649
838.21,12618
838.404,12668
838.599,12588
838.793,12603
838.987,12583
839.18,12539
839.374,12475
839.568,12498
839.762,12463
839.955,12361
840.149,12355
840.342,12380
840.535,12260
840.729,12281
840.922,12141
841.115,12137
841.308,12204
841.501,12114
841.694,12026
841.886,12051
842.079,11962
842.271,11888
842.464,11935
842.656,11900
842.849,11861
843.041,11820
843.233,11816
843.425,11807
843.617,11836
843.809,11745
844.001,11702
844.193,11798
844.384,11731
844.576,11733
844.767,11796
844.959,11695
845.15,11704
845.341,11717
845.533,11702
845.724,11628
845.915,11694
846.106,11637
846.249,11627