Folder: CMU/Physics/PHYS 331 - Advanced Laboratory/PHYS 331 Experiments/PHYS 331 XRD/PHYS 331 XRD (NaCl) Data

File: PHYS 331 XRD Data (NaCl).csv
20,73
20.22,94
20.44,48
20.66,92
20.88,63
21.1,60
21.32,73
21.54,69
21.76,75
21.98,66
22.2,74
22.42,68
22.64,71
22.86,70
23.08,65
23.3,77
23.52,59
23.74,78
23.96,50
24.18,68
24.4,73
24.62,73
24.84,80
25.06,58
25.28,62
25.5,73
25.72,77
25.94,59
26.16,79
26.38,69
26.6,62
26.82,84
27.04,166
27.26,233
27.48,383
27.7,78
27.92,78
28.14,86
28.36,90
28.58,78
28.8,70
29.02,77
29.24,52
29.46,55
29.68,64
29.9,66
30.12,80
30.34,86
30.56,102
30.78,106
31,1854
31.22,1473
31.44,2053
31.66,1452
31.88,390
32.1,101
32.32,81
32.54,70
32.76,74
32.98,73
33.2,81
33.42,65
33.64,76
33.86,68
34.08,61
34.3,65
34.52,65
34.74,65
34.96,57
35.18,64
35.4,51
35.62,52
35.84,67
36.06,45
36.28,56
36.5,51
36.72,56
36.94,52
37.16,52
37.38,49
37.6,43
37.82,45
38.04,43
38.26,43
38.48,45
38.7,49
38.92,46
39.14,50
39.36,36
39.58,44
39.8,36
40.02,42
40.24,53
40.46,43
40.68,54
40.9,54
41.12,42
41.34,43
41.56,46
41.78,36
42,34
42.22,42
42.44,31
42.66,44
42.88,30
43.1,47
43.32,32
43.54,52
43.76,36
43.98,54
44.2,60
44.42,41
44.64,61
44.86,117
45.08,467
45.3,1216
45.52,1058
45.74,380
45.96,86
46.18,50
46.4,40
46.62,57
46.84,45
47.06,42
47.28,36
47.5,35
47.72,51
47.94,37
48.16,32
48.38,49
48.6,53
48.82,48
49.04,54
49.26,36
49.48,34
49.7,25
49.92,41
50.14,40
50.36,43
50.58,49
50.8,40
51.02,38
51.24,39
51.46,37
51.68,32
51.9,38
52.12,37
52.34,46
52.56,33
52.78,33
53,32
53.22,45
53.44,60
53.66,122
53.88,91
54.1,68
54.32,48
54.54,42
54.76,39
54.98,48
55.2,39
55.42,44
55.64,45
55.86,81
56.08,418
56.3,653
56.52,989
56.74,273
56.96,50
57.18,43
57.4,52
57.62,55
57.84,41
58.06,39
58.28,40
58.5,34
58.72,37
58.94,53
59.16,34
59.38,41
59.6,39
59.82,42
60.04,43
60.26,43
60.48,35
60.7,33
60.92,36
61.14,31
61.36,45
61.58,40
61.8,39
62.02,31
62.24,37
62.46,35
62.68,34
62.9,39
63.12,36
63.34,52
63.56,38
63.78,38
64,45
64.22,49
64.44,49
64.66,39
64.88,41
65.1,54
65.32,60
65.54,88
65.76,434
65.98,575
66.2,359
66.42,105
66.64,59
66.86,59
67.08,43
67.3,43
67.52,54
67.74,48
67.96,43
68.18,54
68.4,49
68.62,51
68.84,63
69.06,41
69.28,52
69.5,41
69.72,47
69.94,48
70.16,49
70.38,47
70.6,30
70.82,42
71.04,45
71.26,48
71.48,50
71.7,46
71.92,46
72.14,51
72.36,54
72.58,48
72.8,63
73.02,53
73.24,82
73.46,67
73.68,48
73.9,68
74.12,69
74.34,61
74.56,125
74.78,204
75,1132
75.22,915
75.44,362
75.66,144
75.88,64
76.1,70
76.32,67
76.54,55
76.76,60
76.98,47
77.2,59
77.42,56
77.64,53
77.86,56
78.08,55
78.3,45
78.52,61
78.74,53
78.96,44
79.18,49
79.4,53
79.62,41
79.84,51
80,47