Folder: CMU/Physics/PHYS 331 - Advanced Laboratory/PHYS 331 Experiments/PHYS 331 XRD/PHYS 331 XRD (KCl) Data

File: PHYS 331 XRD Data (KCl).csv
20,103
20.22,100
20.44,88
20.66,90
20.88,92
21.1,83
21.32,87
21.54,88
21.76,69
21.98,77
22.2,86
22.42,87
22.64,93
22.86,86
23.08,79
23.3,95
23.52,84
23.74,68
23.96,65
24.18,78
24.4,63
24.62,85
24.84,75
25.06,71
25.28,85
25.5,84
25.72,73
25.94,98
26.16,95
26.38,87
26.6,61
26.82,81
27.04,55
27.26,70
27.48,70
27.7,83
27.92,89
28.14,133
28.36,180
28.58,1255
28.8,2491
29.02,3656
29.24,490
29.46,127
29.68,99
29.9,120
30.12,97
30.34,97
30.56,96
30.78,92
31,99
31.22,84
31.44,72
31.66,93
31.88,89
32.1,84
32.32,80
32.54,72
32.76,91
32.98,95
33.2,75
33.42,65
33.64,86
33.86,71
34.08,78
34.3,57
34.52,72
34.74,51
34.96,76
35.18,71
35.4,63
35.62,74
35.84,70
36.06,53
36.28,63
36.5,60
36.72,64
36.94,81
37.16,65
37.38,77
37.6,70
37.82,43
38.04,47
38.26,49
38.48,65
38.7,57
38.92,63
39.14,69
39.36,72
39.58,63
39.8,72
40.02,76
40.24,84
40.46,85
40.68,224
40.9,940
41.12,2129
41.34,365
41.56,101
41.78,64
42,69
42.22,64
42.44,71
42.66,78
42.88,51
43.1,63
43.32,66
43.54,52
43.76,50
43.98,64
44.2,57
44.42,56
44.64,67
44.86,56
45.08,51
45.3,50
45.52,66
45.74,36
45.96,56
46.18,57
46.4,60
46.62,58
46.84,48
47.06,53
47.28,55
47.5,52
47.72,44
47.94,47
48.16,60
48.38,51
48.6,49
48.82,43
49.04,62
49.26,46
49.48,49
49.7,53
49.92,63
50.14,57
50.36,78
50.58,308
50.8,426
51.02,86
51.24,65
51.46,48
51.68,52
51.9,52
52.12,34
52.34,49
52.56,61
52.78,49
53,47
53.22,46
53.44,45
53.66,54
53.88,49
54.1,46
54.32,39
54.54,44
54.76,42
54.98,60
55.2,51
55.42,49
55.64,34
55.86,49
56.08,59
56.3,46
56.52,50
56.74,53
56.96,54
57.18,53
57.4,61
57.62,53
57.84,51
58.06,62
58.28,72
58.5,79
58.72,87
58.94,253
59.16,830
59.38,516
59.6,128
59.82,86
60.04,74
60.26,70
60.48,64
60.7,80
60.92,56
61.14,67
61.36,53
61.58,56
61.8,50
62.02,57
62.24,65
62.46,62
62.68,61
62.9,75
63.12,67
63.34,68
63.56,60
63.78,67
64,86
64.22,59
64.44,65
64.66,69
64.88,94
65.1,93
65.32,80
65.54,68
65.76,91
65.98,80
66.2,87
66.42,93
66.64,371
66.86,1340
67.08,945
67.3,213
67.52,80
67.74,84
67.96,72
68.18,72
68.4,65
68.62,73
68.84,74
69.06,70
69.28,65
69.5,56
69.72,67
69.94,56
70.16,79
70.38,62
70.6,65
70.82,50
71.04,86
71.26,70
71.48,70
71.7,76
71.92,64
72.14,72
72.36,61
72.58,66
72.8,74
73.02,63
73.24,66
73.46,82
73.68,78
73.9,144
74.12,519
74.34,521
74.56,181
74.78,78
75,63
75.22,66
75.44,52
75.66,77
75.88,75
76.1,72
76.32,54
76.54,66
76.76,62
76.98,58
77.2,50
77.42,58
77.64,51
77.86,62
78.08,63
78.3,58
78.52,55
78.74,62
78.96,43
79.18,51
79.4,51
79.62,61
79.84,60
80,49